Combined dielectric data (25Au/75Ag), Alexander Al-Feghali al-fegha.li
1 2 3 0 0 = columns for wave, Re(n), Im(n), eps1, eps2
wave(um) Re(n)  Im(n)    eps1   eps2
0.187900	1.122500	1.204500	-0.185500	2.702500

0.191600	1.155000	1.223250	-0.156000	2.827500

0.195300	1.175000	1.244000	-0.168250	2.930000

0.199300	1.187500	1.272750	-0.198250	3.015000

0.203300	1.195000	1.294250	-0.232750	3.085000

0.207300	1.210000	1.308500	-0.249250	3.172500

0.211900	1.225000	1.327500	-0.269500	3.262500

0.216400	1.240000	1.351750	-0.279500	3.347500

0.221400	1.262500	1.361750	-0.266000	3.447500

0.226200	1.272500	1.370000	-0.269250	3.500000

0.231300	1.285000	1.394250	-0.289750	3.575000

0.237100	1.290000	1.411500	-0.327500	3.640000

0.242600	1.305000	1.429250	-0.341750	3.725000

0.249000	1.315000	1.450250	-0.382250	3.815000

0.255100	1.367500	1.464500	-0.297000	4.002500

0.261600	1.350000	1.479750	-0.385750	3.985000

0.268900	1.380000	1.478250	-0.321000	4.087500

0.276100	1.415000	1.459250	-0.179750	4.132500

0.284400	1.425000	1.412250	-0.040000	4.042500

0.292400	1.790000	1.339500	1.340500	4.692500

0.300900	1.387500	1.192250	0.342000	3.380000

0.310700	1.230000	0.938250	0.362750	2.490000

0.320400	0.992500	0.767000	0.069000	1.942500

0.331500	0.497500	1.093250	-0.833500	1.602500

0.342500	0.475000	1.322750	-1.291250	1.625000

0.354200	0.450000	1.531500	-1.810500	1.610000

0.367900	0.422500	1.718750	-2.405750	1.575000

0.381500	0.402500	1.878250	-3.004000	1.552500

0.397400	0.405000	2.040500	-3.624000	1.592500

0.413300	0.402500	2.192000	-4.304750	1.602500

0.430500	0.392500	2.332000	-4.967500	1.562500

0.450900	0.375000	2.473500	-5.733500	1.477500

0.471400	0.365000	2.614750	-6.596750	1.427500

0.495900	0.297500	2.775750	-7.743000	1.185000

0.520900	0.192500	3.010250	-9.272000	0.892500

0.548600	0.152500	3.306250	-11.102000	0.850000

0.582100	0.110000	3.610750	-13.189000	0.707500

0.616800	0.097500	3.930500	-15.592000	0.717500

0.659500	0.072500	4.284250	-18.483750	0.597500

0.704500	0.062500	4.655750	-21.758750	0.560000

0.756000	0.057500	5.065500	-25.761000	0.550000

0.821100	0.070000	5.568250	-31.050250	0.752500

0.892000	0.072500	6.148250	-37.890000	0.857500

0.984000	0.085000	6.830000	-46.732000	1.117500

1.088000	0.097500	7.630000	-58.332500	1.430000

1.216000	0.155000	8.658750	-74.998750	2.617500

1.393000	0.205000	9.954750	-99.102250	4.020000

1.610000	0.252500	11.690000	-136.650000	5.802500

1.937000	0.410000	14.005000	-195.891750	11.410000

