Combined dielectric data (75Au/25Ag), Alexander Al-Feghali al-fegha.li
1 2 3 0 0 = columns for wave, Re(n), Im(n), eps1, eps2
wave(um) Re(n)  Im(n)    eps1   eps2
0.187900	1.227500	1.193500	0.091500	2.927500
0.191600	1.265000	1.209750	0.148000	3.062500
0.195300	1.285000	1.232000	0.137250	3.170000
0.199300	1.282500	1.258250	0.067250	3.225000
0.203300	1.285000	1.282750	0.015750	3.295000
0.207300	1.270000	1.305500	-0.089750	3.317500
0.211900	1.275000	1.342500	-0.176500	3.427500
0.216400	1.280000	1.375250	-0.246500	3.522500
0.221400	1.287500	1.405250	-0.322000	3.622500
0.226200	1.297500	1.430000	-0.369750	3.720000
0.231300	1.295000	1.462750	-0.463250	3.785000
0.237100	1.310000	1.494500	-0.522500	3.920000
0.242600	1.315000	1.527750	-0.607250	4.015000
0.249000	1.325000	1.570750	-0.720750	4.165000
0.255100	1.342500	1.613500	-0.819000	4.327500
0.261600	1.350000	1.659250	-0.955250	4.475000
0.268900	1.380000	1.694750	-1.007000	4.682500
0.276100	1.425000	1.717750	-0.973250	4.897500
0.284400	1.455000	1.716750	-0.900000	5.007500
0.292400	1.590000	1.698500	-0.426500	5.297500
0.300900	1.482500	1.656750	-0.706000	4.980000
0.310700	1.430000	1.574750	-0.705750	4.690000
0.320400	1.357500	1.521000	-0.797000	4.547500
0.331500	1.152500	1.619750	-1.184500	4.247500
0.342500	1.145000	1.688250	-1.303750	4.235000
0.354200	1.150000	1.754500	-1.423500	4.270000
0.367900	1.127500	1.836250	-1.735250	4.265000
0.381500	1.107500	1.914750	-2.068000	4.277500
0.397400	1.115000	1.981500	-2.308000	4.357500
0.413300	1.107500	2.036000	-2.568250	4.347500
0.430500	1.097500	2.076000	-2.782500	4.287500
0.450900	1.045000	2.100500	-3.084500	4.012500
0.471400	0.995000	2.104250	-3.332250	3.702500
0.495900	0.792500	2.147250	-4.101000	2.935000
0.520900	0.477500	2.390750	-5.724000	2.017500
0.548600	0.337500	2.738750	-7.594000	1.690000
0.582100	0.230000	3.112250	-9.803000	1.342500
0.616800	0.172500	3.491500	-12.304000	1.152500
0.659500	0.117500	3.892750	-15.261250	0.892500
0.704500	0.107500	4.287250	-18.466250	0.900000
0.756000	0.112500	4.716500	-22.327000	1.030000
0.821100	0.130000	5.244750	-27.556750	1.337500
0.892000	0.137500	5.824750	-33.990000	1.572500
0.984000	0.175000	6.510000	-42.424000	2.232500
1.088000	0.212500	7.310000	-53.477500	3.050000
1.216000	0.285000	8.316250	-69.146250	4.672500
1.393000	0.355000	9.664250	-93.320750	6.800000
1.610000	0.457500	11.370000	-129.150000	10.307500
1.937000	0.750000	13.855000	-191.297250	20.710000
